"rt","stimulus","response","trial_type","trial_index","time_elapsed","internal_node_id","participant_id","experiment_id","task","item_id","condition","item_type","sentence","rating"
"4330","
      <div class=""panel"">
        <h1>Hoşgeldiniz!</h1>
        <p class=""lede"">Ortalama 5-6 dakika süren bu çalışmada Türkçe cümlelerin kulağa doğal gelip gelmediğine karar vermeniz istenecek.</p>
        <p class=""lede"">Bu çalışmada doğru veya yanlış bir cevap bulunmuyor, karar verirken kendi içgüdülerinize göre davranmalısınız.</p>
        <p class=""lede"">Lütfen cümleleri gördüğünüzde dürüstçe ve dikkatlice karar veriniz.</p>
        <p class=""lede"">Devam butonuna basarak anadilinizin Türkçe olduğunu ve 18 yaşından büyük olduğunuzu onaylamış olacaksınız.</p>
        <p class=""lede"">Katılımınız için teşekkür ederim!</p>

        </div>
    ","0","html-button-response","0","4337","0.0-0.0-0.0","56vd5nwq8p","MmjD9uQZYa6C","","","","","",""
"1702","
      <div class=""panel"">
        <h2>Yönerge</h2>
        <ul class=""intro-list"">
          <li>Cümleleri ardışık olarak birer kez göreceksiniz.</li>
          <li>Değerlendirmenizi belirtmek için 0'dan 4'e kadar sıralanmış butonları kullanınız.</li>
          <li>0 puan, cümleyi çok tuhaf bulduğunuz ve sizin bu cümleyi günlük hayatınızda kullanmayacağınız anlamına gelmektedir.</li>
          <li>4 puan cümlede hiçbir sorun yok anlamına gelmektedir.</li>
          <li>Derecelendirmeyi cümlenin rahatsız edicilik seviyesine göre belirleyiniz.</li>
          <li>Lütfen içgüdünüze güvenin!</li>
        </ul>
      </div>
    ","0","html-button-response","1","6041","0.0-0.0-1.0","56vd5nwq8p","MmjD9uQZYa6C","","","","","",""
"2142","
        <div class=""panel"">
          <div class=""sentence-box"">Ocak eti pişirdi.</div>
          <div class=""scale-note"">Bu cümle size doğal geliyor mu?</div>
        </div>
      ","4","html-button-response","2","8187","0.0-1.0","56vd5nwq8p","MmjD9uQZYa6C","acceptability_rating","12","high_energy","critical","Ocak eti pişirdi.","4"
"2381","
        <div class=""panel"">
          <div class=""sentence-box"">Renkler buzu soğuttu.</div>
          <div class=""scale-note"">Bu cümle size doğal geliyor mu?</div>
        </div>
      ","2","html-button-response","3","10571","0.0-2.0","56vd5nwq8p","MmjD9uQZYa6C","acceptability_rating","36","semantic_violation","filler","Renkler buzu soğuttu.","2"
"1127","
        <div class=""panel"">
          <div class=""sentence-box"">Rüzgar kapıyı açtı.</div>
          <div class=""scale-note"">Bu cümle size doğal geliyor mu?</div>
        </div>
      ","4","html-button-response","4","11700","0.0-3.0","56vd5nwq8p","MmjD9uQZYa6C","acceptability_rating","15","high_energy","critical","Rüzgar kapıyı açtı.","4"
"2167","
        <div class=""panel"">
          <div class=""sentence-box"">İnsanlar yüksek sesten rahatsız oldu.</div>
          <div class=""scale-note"">Bu cümle size doğal geliyor mu?</div>
        </div>
      ","4","html-button-response","5","13871","0.0-4.0","56vd5nwq8p","MmjD9uQZYa6C","acceptability_rating","49","grammatical","filler","İnsanlar yüksek sesten rahatsız oldu.","4"
"2398","
        <div class=""panel"">
          <div class=""sentence-box"">Bulaşık makinesi bulaşıkları çalkaladı.</div>
          <div class=""scale-note"">Bu cümle size doğal geliyor mu?</div>
        </div>
      ","3","html-button-response","6","16272","0.0-5.0","56vd5nwq8p","MmjD9uQZYa6C","acceptability_rating","5","high_energy","critical","Bulaşık makinesi bulaşıkları çalkaladı.","3"
"2807","
        <div class=""panel"">
          <div class=""sentence-box"">Su gömleği kuruttu.</div>
          <div class=""scale-note"">Bu cümle size doğal geliyor mu?</div>
        </div>
      ","0","html-button-response","7","19081","0.0-6.0","56vd5nwq8p","MmjD9uQZYa6C","acceptability_rating","35","semantic_violation","filler","Su gömleği kuruttu.","0"
"1315","
        <div class=""panel"">
          <div class=""sentence-box"">Deniz dalgalanmaya başladı.</div>
          <div class=""scale-note"">Bu cümle size doğal geliyor mu?</div>
        </div>
      ","4","html-button-response","8","20398","0.0-7.0","56vd5nwq8p","MmjD9uQZYa6C","acceptability_rating","50","grammatical","filler","Deniz dalgalanmaya başladı.","4"
"1776","
        <div class=""panel"">
          <div class=""sentence-box"">Tirbuşon şişeyi açtı.</div>
          <div class=""scale-note"">Bu cümle size doğal geliyor mu?</div>
        </div>
      ","4","html-button-response","9","22177","0.0-8.0","56vd5nwq8p","MmjD9uQZYa6C","acceptability_rating","17","low_energy","critical","Tirbuşon şişeyi açtı.","4"
"1477","
        <div class=""panel"">
          <div class=""sentence-box"">Ekmek kızartma makinesi ekmeği kızarttı.</div>
          <div class=""scale-note"">Bu cümle size doğal geliyor mu?</div>
        </div>
      ","4","html-button-response","10","23657","0.0-9.0","56vd5nwq8p","MmjD9uQZYa6C","acceptability_rating","14","high_energy","critical","Ekmek kızartma makinesi ekmeği kızarttı.","4"
"1961","
        <div class=""panel"">
          <div class=""sentence-box"">Aylin okula çok sevdi.</div>
          <div class=""scale-note"">Bu cümle size doğal geliyor mu?</div>
        </div>
      ","0","html-button-response","11","25620","0.0-10.0","56vd5nwq8p","MmjD9uQZYa6C","acceptability_rating","37","case_marking_error","filler","Aylin okula çok sevdi.","0"
"2746","
        <div class=""panel"">
          <div class=""sentence-box"">Çaydanlık çayı demledi.</div>
          <div class=""scale-note"">Bu cümle size doğal geliyor mu?</div>
        </div>
      ","1","html-button-response","12","28369","0.0-11.0","56vd5nwq8p","MmjD9uQZYa6C","acceptability_rating","23","low_energy","critical","Çaydanlık çayı demledi.","1"
"1939","
        <div class=""panel"">
          <div class=""sentence-box"">Aylin her gün otobüsü bindi.</div>
          <div class=""scale-note"">Bu cümle size doğal geliyor mu?</div>
        </div>
      ","1","html-button-response","13","30310","0.0-12.0","56vd5nwq8p","MmjD9uQZYa6C","acceptability_rating","38","case_marking_error","filler","Aylin her gün otobüsü bindi.","1"
"2435","
        <div class=""panel"">
          <div class=""sentence-box"">Mum odayı aydınlattı.</div>
          <div class=""scale-note"">Bu cümle size doğal geliyor mu?</div>
        </div>
      ","4","html-button-response","14","32748","0.0-13.0","56vd5nwq8p","MmjD9uQZYa6C","acceptability_rating","4","high_energy","critical","Mum odayı aydınlattı.","4"
"47473","
        <div class=""panel"">
          <div class=""sentence-box"">Taş pencereyi kırdı.</div>
          <div class=""scale-note"">Bu cümle size doğal geliyor mu?</div>
        </div>
      ","4","html-button-response","15","80226","0.0-14.0","56vd5nwq8p","MmjD9uQZYa6C","acceptability_rating","29","low_energy","critical","Taş pencereyi kırdı.","4"
"27132","
        <div class=""panel"">
          <div class=""sentence-box"">Aylin arkadaşını saldırdı.</div>
          <div class=""scale-note"">Bu cümle size doğal geliyor mu?</div>
        </div>
      ","1","html-button-response","16","107360","0.0-15.0","56vd5nwq8p","MmjD9uQZYa6C","acceptability_rating","41","case_marking_error","filler","Aylin arkadaşını saldırdı.","1"
"1273","
        <div class=""panel"">
          <div class=""sentence-box"">Çatal erişteyi ezdi.</div>
          <div class=""scale-note"">Bu cümle size doğal geliyor mu?</div>
        </div>
      ","4","html-button-response","17","108635","0.0-16.0","56vd5nwq8p","MmjD9uQZYa6C","acceptability_rating","16","low_energy","critical","Çatal erişteyi ezdi.","4"
"3487","
        <div class=""panel"">
          <div class=""sentence-box"">Aşçı yemeği dün pişirecek.</div>
          <div class=""scale-note"">Bu cümle size doğal geliyor mu?</div>
        </div>
      ","1","html-button-response","18","112124","0.0-17.0","56vd5nwq8p","MmjD9uQZYa6C","acceptability_rating","45","tense_mismatch","filler","Aşçı yemeği dün pişirecek.","1"
"1431","
        <div class=""panel"">
          <div class=""sentence-box"">Yıldırım bekçiyi öldürdü.</div>
          <div class=""scale-note"">Bu cümle size doğal geliyor mu?</div>
        </div>
      ","4","html-button-response","19","113557","0.0-18.0","56vd5nwq8p","MmjD9uQZYa6C","acceptability_rating","8","high_energy","critical","Yıldırım bekçiyi öldürdü.","4"
"974","
        <div class=""panel"">
          <div class=""sentence-box"">Aylin camı çatlattı.</div>
          <div class=""scale-note"">Bu cümle size doğal geliyor mu?</div>
        </div>
      ","4","html-button-response","20","114534","0.0-19.0","56vd5nwq8p","MmjD9uQZYa6C","acceptability_rating","47","grammatical","filler","Aylin camı çatlattı.","4"
"2228","
        <div class=""panel"">
          <div class=""sentence-box"">Okul geçtiğimiz yıl 22 mezun verecek.</div>
          <div class=""scale-note"">Bu cümle size doğal geliyor mu?</div>
        </div>
      ","0","html-button-response","21","116764","0.0-20.0","56vd5nwq8p","MmjD9uQZYa6C","acceptability_rating","43","tense_mismatch","filler","Okul geçtiğimiz yıl 22 mezun verecek.","0"
"4638","
        <div class=""panel"">
          <div class=""sentence-box"">Diş fırçası dişleri temizledi.</div>
          <div class=""scale-note"">Bu cümle size doğal geliyor mu?</div>
        </div>
      ","4","html-button-response","22","121405","0.0-21.0","56vd5nwq8p","MmjD9uQZYa6C","acceptability_rating","30","low_energy","critical","Diş fırçası dişleri temizledi.","4"
"1387","
        <div class=""panel"">
          <div class=""sentence-box"">Klima tahtayı dondurdu.</div>
          <div class=""scale-note"">Bu cümle size doğal geliyor mu?</div>
        </div>
      ","4","html-button-response","23","122794","0.0-22.0","56vd5nwq8p","MmjD9uQZYa6C","acceptability_rating","34","semantic_violation","filler","Klima tahtayı dondurdu.","4"
"1844","
        <div class=""panel"">
          <div class=""sentence-box"">Elektrikli su ısıtıcısı suyu kaynattı.</div>
          <div class=""scale-note"">Bu cümle size doğal geliyor mu?</div>
        </div>
      ","4","html-button-response","24","124640","0.0-23.0","56vd5nwq8p","MmjD9uQZYa6C","acceptability_rating","6","high_energy","critical","Elektrikli su ısıtıcısı suyu kaynattı.","4"
"3275","
        <div class=""panel"">
          <div class=""sentence-box"">Ayakkabı düşünceyi çatlattı.</div>
          <div class=""scale-note"">Bu cümle size doğal geliyor mu?</div>
        </div>
      ","0","html-button-response","25","127917","0.0-24.0","56vd5nwq8p","MmjD9uQZYa6C","acceptability_rating","33","semantic_violation","filler","Ayakkabı düşünceyi çatlattı.","0"
"1668","
        <div class=""panel"">
          <div class=""sentence-box"">Öğrenciler sessizliği ısıttı.</div>
          <div class=""scale-note"">Bu cümle size doğal geliyor mu?</div>
        </div>
      ","1","html-button-response","26","129587","0.0-25.0","56vd5nwq8p","MmjD9uQZYa6C","acceptability_rating","31","semantic_violation","filler","Öğrenciler sessizliği ısıttı.","1"
"942","
        <div class=""panel"">
          <div class=""sentence-box"">Bıçak ekmeği kesti.</div>
          <div class=""scale-note"">Bu cümle size doğal geliyor mu?</div>
        </div>
      ","4","html-button-response","27","130532","0.0-26.0","56vd5nwq8p","MmjD9uQZYa6C","acceptability_rating","25","low_energy","critical","Bıçak ekmeği kesti.","4"
"1523","
        <div class=""panel"">
          <div class=""sentence-box"">Kalem notu yazdı.</div>
          <div class=""scale-note"">Bu cümle size doğal geliyor mu?</div>
        </div>
      ","1","html-button-response","28","132056","0.0-27.0","56vd5nwq8p","MmjD9uQZYa6C","acceptability_rating","26","low_energy","critical","Kalem notu yazdı.","1"
"1366","
        <div class=""panel"">
          <div class=""sentence-box"">Klima duvara takılacak.</div>
          <div class=""scale-note"">Bu cümle size doğal geliyor mu?</div>
        </div>
      ","4","html-button-response","29","133424","0.0-28.0","56vd5nwq8p","MmjD9uQZYa6C","acceptability_rating","48","grammatical","filler","Klima duvara takılacak.","4"
"905","
        <div class=""panel"">
          <div class=""sentence-box"">Makas kağıdı kesti.</div>
          <div class=""scale-note"">Bu cümle size doğal geliyor mu?</div>
        </div>
      ","4","html-button-response","30","134331","0.0-29.0","56vd5nwq8p","MmjD9uQZYa6C","acceptability_rating","27","low_energy","critical","Makas kağıdı kesti.","4"
"1341","
        <div class=""panel"">
          <div class=""sentence-box"">Soba kabini ısıttı.</div>
          <div class=""scale-note"">Bu cümle size doğal geliyor mu?</div>
        </div>
      ","4","html-button-response","31","135675","0.0-30.0","56vd5nwq8p","MmjD9uQZYa6C","acceptability_rating","11","high_energy","critical","Soba kabini ısıttı.","4"
"1857","
        <div class=""panel"">
          <div class=""sentence-box"">Bebek annesine özledi.</div>
          <div class=""scale-note"">Bu cümle size doğal geliyor mu?</div>
        </div>
      ","0","html-button-response","32","137534","0.0-31.0","56vd5nwq8p","MmjD9uQZYa6C","acceptability_rating","40","case_marking_error","filler","Bebek annesine özledi.","0"
"1064","
        <div class=""panel"">
          <div class=""sentence-box"">Klima odayı soğuttu.</div>
          <div class=""scale-note"">Bu cümle size doğal geliyor mu?</div>
        </div>
      ","4","html-button-response","33","138601","0.0-32.0","56vd5nwq8p","MmjD9uQZYa6C","acceptability_rating","1","high_energy","critical","Klima odayı soğuttu.","4"
"1031","
        <div class=""panel"">
          <div class=""sentence-box"">Anahtar kapıyı kilitledi.</div>
          <div class=""scale-note"">Bu cümle size doğal geliyor mu?</div>
        </div>
      ","4","html-button-response","34","139634","0.0-33.0","56vd5nwq8p","MmjD9uQZYa6C","acceptability_rating","24","low_energy","critical","Anahtar kapıyı kilitledi.","4"
"8371","
        <div class=""panel"">
          <div class=""sentence-box"">Dünkü sert güneş şarkıyı eritti.</div>
          <div class=""scale-note"">Bu cümle size doğal geliyor mu?</div>
        </div>
      ","1","html-button-response","35","148007","0.0-34.0","56vd5nwq8p","MmjD9uQZYa6C","acceptability_rating","32","semantic_violation","filler","Dünkü sert güneş şarkıyı eritti.","1"
"1919","
        <div class=""panel"">
          <div class=""sentence-box"">Topuklu ayakkabı zemini çizdi.</div>
          <div class=""scale-note"">Bu cümle size doğal geliyor mu?</div>
        </div>
      ","4","html-button-response","36","149928","0.0-35.0","56vd5nwq8p","MmjD9uQZYa6C","acceptability_rating","21","low_energy","critical","Topuklu ayakkabı zemini çizdi.","4"
"2906","
        <div class=""panel"">
          <div class=""sentence-box"">Ceket çocuğu ısıttı.</div>
          <div class=""scale-note"">Bu cümle size doğal geliyor mu?</div>
        </div>
      ","4","html-button-response","37","152836","0.0-36.0","56vd5nwq8p","MmjD9uQZYa6C","acceptability_rating","22","low_energy","critical","Ceket çocuğu ısıttı.","4"
"9733","
        <div class=""panel"">
          <div class=""sentence-box"">Yarın Nilüfer bu parçayı söyledi.</div>
          <div class=""scale-note"">Bu cümle size doğal geliyor mu?</div>
        </div>
      ","0","html-button-response","38","162571","0.0-37.0","56vd5nwq8p","MmjD9uQZYa6C","acceptability_rating","46","tense_mismatch","filler","Yarın Nilüfer bu parçayı söyledi.","0"
"1838","
        <div class=""panel"">
          <div class=""sentence-box"">Isıtıcı kahveyi ısıttı.</div>
          <div class=""scale-note"">Bu cümle size doğal geliyor mu?</div>
        </div>
      ","4","html-button-response","39","164411","0.0-38.0","56vd5nwq8p","MmjD9uQZYa6C","acceptability_rating","3","high_energy","critical","Isıtıcı kahveyi ısıttı.","4"
"1656","
        <div class=""panel"">
          <div class=""sentence-box"">Güneş kıyafetleri kuruttu.</div>
          <div class=""scale-note"">Bu cümle size doğal geliyor mu?</div>
        </div>
      ","4","html-button-response","40","166070","0.0-39.0","56vd5nwq8p","MmjD9uQZYa6C","acceptability_rating","13","high_energy","critical","Güneş kıyafetleri kuruttu.","4"
"1131","
        <div class=""panel"">
          <div class=""sentence-box"">Mikrodalga çorbayı ısıttı.</div>
          <div class=""scale-note"">Bu cümle size doğal geliyor mu?</div>
        </div>
      ","4","html-button-response","41","167203","0.0-40.0","56vd5nwq8p","MmjD9uQZYa6C","acceptability_rating","9","high_energy","critical","Mikrodalga çorbayı ısıttı.","4"
"1896","
        <div class=""panel"">
          <div class=""sentence-box"">Çocuklar karanlığı çok korktu.</div>
          <div class=""scale-note"">Bu cümle size doğal geliyor mu?</div>
        </div>
      ","0","html-button-response","42","169101","0.0-41.0","56vd5nwq8p","MmjD9uQZYa6C","acceptability_rating","39","case_marking_error","filler","Çocuklar karanlığı çok korktu.","0"
"1086","
        <div class=""panel"">
          <div class=""sentence-box"">Çekiç vazoyu kırdı.</div>
          <div class=""scale-note"">Bu cümle size doğal geliyor mu?</div>
        </div>
      ","4","html-button-response","43","170190","0.0-42.0","56vd5nwq8p","MmjD9uQZYa6C","acceptability_rating","19","low_energy","critical","Çekiç vazoyu kırdı.","4"
"3682","
        <div class=""panel"">
          <div class=""sentence-box"">Silgi lekeyi sildi.</div>
          <div class=""scale-note"">Bu cümle size doğal geliyor mu?</div>
        </div>
      ","3","html-button-response","44","173874","0.0-43.0","56vd5nwq8p","MmjD9uQZYa6C","acceptability_rating","18","low_energy","critical","Silgi lekeyi sildi.","3"
"1035","
        <div class=""panel"">
          <div class=""sentence-box"">Buzdolabı birayı soğuttu.</div>
          <div class=""scale-note"">Bu cümle size doğal geliyor mu?</div>
        </div>
      ","4","html-button-response","45","174911","0.0-44.0","56vd5nwq8p","MmjD9uQZYa6C","acceptability_rating","10","high_energy","critical","Buzdolabı birayı soğuttu.","4"
"1453","
        <div class=""panel"">
          <div class=""sentence-box"">Çalar saat çocukları uyandırdı.</div>
          <div class=""scale-note"">Bu cümle size doğal geliyor mu?</div>
        </div>
      ","4","html-button-response","46","176368","0.0-45.0","56vd5nwq8p","MmjD9uQZYa6C","acceptability_rating","2","high_energy","critical","Çalar saat çocukları uyandırdı.","4"
"1855","
        <div class=""panel"">
          <div class=""sentence-box"">Gözlük camı kelimeleri büyüttü.</div>
          <div class=""scale-note"">Bu cümle size doğal geliyor mu?</div>
        </div>
      ","3","html-button-response","47","178227","0.0-46.0","56vd5nwq8p","MmjD9uQZYa6C","acceptability_rating","7","high_energy","critical","Gözlük camı kelimeleri büyüttü.","3"
"1879","
        <div class=""panel"">
          <div class=""sentence-box"">Askı gömleği düşürdü.</div>
          <div class=""scale-note"">Bu cümle size doğal geliyor mu?</div>
        </div>
      ","1","html-button-response","48","180109","0.0-47.0","56vd5nwq8p","MmjD9uQZYa6C","acceptability_rating","20","low_energy","critical","Askı gömleği düşürdü.","1"
"2004","
        <div class=""panel"">
          <div class=""sentence-box"">Kaşık dondurmayı taşıdı.</div>
          <div class=""scale-note"">Bu cümle size doğal geliyor mu?</div>
        </div>
      ","1","html-button-response","49","182114","0.0-48.0","56vd5nwq8p","MmjD9uQZYa6C","acceptability_rating","28","low_energy","critical","Kaşık dondurmayı taşıdı.","1"
"1586","
        <div class=""panel"">
          <div class=""sentence-box"">Otobüs biraz önce kalkacak.</div>
          <div class=""scale-note"">Bu cümle size doğal geliyor mu?</div>
        </div>
      ","0","html-button-response","50","183702","0.0-49.0","56vd5nwq8p","MmjD9uQZYa6C","acceptability_rating","44","tense_mismatch","filler","Otobüs biraz önce kalkacak.","0"
"2324","
        <div class=""panel"">
          <div class=""sentence-box"">Annem bana yemeği dün yaptıracak.</div>
          <div class=""scale-note"">Bu cümle size doğal geliyor mu?</div>
        </div>
      ","0","html-button-response","51","186029","0.0-50.0","56vd5nwq8p","MmjD9uQZYa6C","acceptability_rating","42","tense_mismatch","filler","Annem bana yemeği dün yaptıracak.","0"
"null","
      <div class=""panel"">
        <p class=""lede"" id=""save-status"">Veriler işleniyor ve kaydediliyor...</p>
      </div>
    ","null","html-button-response","52","188034","0.0-51.0","56vd5nwq8p","MmjD9uQZYa6C","","","","","",""
