"rt","stimulus","response","trial_type","trial_index","time_elapsed","internal_node_id","participant_id","experiment_id","task","item_id","condition","item_type","sentence","rating"
"17530","
      <div class=""panel"">
        <h1>Hoşgeldiniz!</h1>
        <p class=""lede"">Ortalama 5-6 dakika süren bu çalışmada Türkçe cümlelerin kulağa doğal gelip gelmediğine karar vermeniz istenecek.</p>
        <p class=""lede"">Bu çalışmada doğru veya yanlış bir cevap bulunmuyor, karar verirken kendi içgüdülerinize göre davranmalısınız.</p>
        <p class=""lede"">Lütfen cümleleri gördüğünüzde dürüstçe ve dikkatlice karar veriniz.</p>
        <p class=""lede"">Devam butonuna basarak anadilinizin Türkçe olduğunu ve 18 yaşından büyük olduğunuzu onaylamış olacaksınız.</p>
        <p class=""lede"">Katılımınız için teşekkür ederim!</p>

        </div>
    ","0","html-button-response","0","17536","0.0-0.0-0.0","5y610ky0xx","MmjD9uQZYa6C","","","","","",""
"2369","
      <div class=""panel"">
        <h2>Yönerge</h2>
        <ul class=""intro-list"">
          <li>Cümleleri ardışık olarak birer kez göreceksiniz.</li>
          <li>Değerlendirmenizi belirtmek için 0'dan 4'e kadar sıralanmış butonları kullanınız.</li>
          <li>0 puan, cümleyi çok tuhaf bulduğunuz ve sizin bu cümleyi günlük hayatınızda kullanmayacağınız anlamına gelmektedir.</li>
          <li>4 puan cümlede hiçbir sorun yok anlamına gelmektedir.</li>
          <li>Derecelendirmeyi cümlenin rahatsız edicilik seviyesine göre belirleyiniz.</li>
          <li>Lütfen içgüdünüze güvenin!</li>
        </ul>
      </div>
    ","0","html-button-response","1","19906","0.0-0.0-1.0","5y610ky0xx","MmjD9uQZYa6C","","","","","",""
"11662","
        <div class=""panel"">
          <div class=""sentence-box"">Mum odayı aydınlattı.</div>
          <div class=""scale-note"">Bu cümle size doğal geliyor mu?</div>
        </div>
      ","4","html-button-response","2","31571","0.0-1.0","5y610ky0xx","MmjD9uQZYa6C","acceptability_rating","4","high_energy","critical","Mum odayı aydınlattı.","4"
"7321","
        <div class=""panel"">
          <div class=""sentence-box"">Topuklu ayakkabı zemini çizdi.</div>
          <div class=""scale-note"">Bu cümle size doğal geliyor mu?</div>
        </div>
      ","4","html-button-response","3","38894","0.0-2.0","5y610ky0xx","MmjD9uQZYa6C","acceptability_rating","21","low_energy","critical","Topuklu ayakkabı zemini çizdi.","4"
"4905","
        <div class=""panel"">
          <div class=""sentence-box"">Silgi lekeyi sildi.</div>
          <div class=""scale-note"">Bu cümle size doğal geliyor mu?</div>
        </div>
      ","0","html-button-response","4","43801","0.0-3.0","5y610ky0xx","MmjD9uQZYa6C","acceptability_rating","18","low_energy","critical","Silgi lekeyi sildi.","0"
"2896","
        <div class=""panel"">
          <div class=""sentence-box"">Anahtar kapıyı kilitledi.</div>
          <div class=""scale-note"">Bu cümle size doğal geliyor mu?</div>
        </div>
      ","4","html-button-response","5","46700","0.0-4.0","5y610ky0xx","MmjD9uQZYa6C","acceptability_rating","24","low_energy","critical","Anahtar kapıyı kilitledi.","4"
"4981","
        <div class=""panel"">
          <div class=""sentence-box"">Kaşık dondurmayı taşıdı.</div>
          <div class=""scale-note"">Bu cümle size doğal geliyor mu?</div>
        </div>
      ","0","html-button-response","6","51683","0.0-5.0","5y610ky0xx","MmjD9uQZYa6C","acceptability_rating","28","low_energy","critical","Kaşık dondurmayı taşıdı.","0"
"5198","
        <div class=""panel"">
          <div class=""sentence-box"">Tirbuşon şişeyi açtı.</div>
          <div class=""scale-note"">Bu cümle size doğal geliyor mu?</div>
        </div>
      ","3","html-button-response","7","56884","0.0-6.0","5y610ky0xx","MmjD9uQZYa6C","acceptability_rating","17","low_energy","critical","Tirbuşon şişeyi açtı.","3"
"11323","
        <div class=""panel"">
          <div class=""sentence-box"">Yıldırım bekçiyi öldürdü.</div>
          <div class=""scale-note"">Bu cümle size doğal geliyor mu?</div>
        </div>
      ","1","html-button-response","8","68208","0.0-7.0","5y610ky0xx","MmjD9uQZYa6C","acceptability_rating","8","high_energy","critical","Yıldırım bekçiyi öldürdü.","1"
"5641","
        <div class=""panel"">
          <div class=""sentence-box"">Çocuklar karanlığı çok korktu.</div>
          <div class=""scale-note"">Bu cümle size doğal geliyor mu?</div>
        </div>
      ","0","html-button-response","9","73851","0.0-8.0","5y610ky0xx","MmjD9uQZYa6C","acceptability_rating","39","case_marking_error","filler","Çocuklar karanlığı çok korktu.","0"
"2738","
        <div class=""panel"">
          <div class=""sentence-box"">Çalar saat çocukları uyandırdı.</div>
          <div class=""scale-note"">Bu cümle size doğal geliyor mu?</div>
        </div>
      ","4","html-button-response","10","76592","0.0-9.0","5y610ky0xx","MmjD9uQZYa6C","acceptability_rating","2","high_energy","critical","Çalar saat çocukları uyandırdı.","4"
"3263","
        <div class=""panel"">
          <div class=""sentence-box"">Taş pencereyi kırdı.</div>
          <div class=""scale-note"">Bu cümle size doğal geliyor mu?</div>
        </div>
      ","3","html-button-response","11","79857","0.0-10.0","5y610ky0xx","MmjD9uQZYa6C","acceptability_rating","29","low_energy","critical","Taş pencereyi kırdı.","3"
"4374","
        <div class=""panel"">
          <div class=""sentence-box"">Askı gömleği düşürdü.</div>
          <div class=""scale-note"">Bu cümle size doğal geliyor mu?</div>
        </div>
      ","3","html-button-response","12","84233","0.0-11.0","5y610ky0xx","MmjD9uQZYa6C","acceptability_rating","20","low_energy","critical","Askı gömleği düşürdü.","3"
"5756","
        <div class=""panel"">
          <div class=""sentence-box"">Bulaşık makinesi bulaşıkları çalkaladı.</div>
          <div class=""scale-note"">Bu cümle size doğal geliyor mu?</div>
        </div>
      ","3","html-button-response","13","89990","0.0-12.0","5y610ky0xx","MmjD9uQZYa6C","acceptability_rating","5","high_energy","critical","Bulaşık makinesi bulaşıkları çalkaladı.","3"
"3150","
        <div class=""panel"">
          <div class=""sentence-box"">Aylin camı çatlattı.</div>
          <div class=""scale-note"">Bu cümle size doğal geliyor mu?</div>
        </div>
      ","4","html-button-response","14","93141","0.0-13.0","5y610ky0xx","MmjD9uQZYa6C","acceptability_rating","47","grammatical","filler","Aylin camı çatlattı.","4"
"3306","
        <div class=""panel"">
          <div class=""sentence-box"">Aylin arkadaşını saldırdı.</div>
          <div class=""scale-note"">Bu cümle size doğal geliyor mu?</div>
        </div>
      ","0","html-button-response","15","96449","0.0-14.0","5y610ky0xx","MmjD9uQZYa6C","acceptability_rating","41","case_marking_error","filler","Aylin arkadaşını saldırdı.","0"
"7803","
        <div class=""panel"">
          <div class=""sentence-box"">Diş fırçası dişleri temizledi.</div>
          <div class=""scale-note"">Bu cümle size doğal geliyor mu?</div>
        </div>
      ","2","html-button-response","16","104254","0.0-15.0","5y610ky0xx","MmjD9uQZYa6C","acceptability_rating","30","low_energy","critical","Diş fırçası dişleri temizledi.","2"
"2924","
        <div class=""panel"">
          <div class=""sentence-box"">Çaydanlık çayı demledi.</div>
          <div class=""scale-note"">Bu cümle size doğal geliyor mu?</div>
        </div>
      ","0","html-button-response","17","107179","0.0-16.0","5y610ky0xx","MmjD9uQZYa6C","acceptability_rating","23","low_energy","critical","Çaydanlık çayı demledi.","0"
"3401","
        <div class=""panel"">
          <div class=""sentence-box"">Aylin okula çok sevdi.</div>
          <div class=""scale-note"">Bu cümle size doğal geliyor mu?</div>
        </div>
      ","0","html-button-response","18","110581","0.0-17.0","5y610ky0xx","MmjD9uQZYa6C","acceptability_rating","37","case_marking_error","filler","Aylin okula çok sevdi.","0"
"3678","
        <div class=""panel"">
          <div class=""sentence-box"">Aylin her gün otobüsü bindi.</div>
          <div class=""scale-note"">Bu cümle size doğal geliyor mu?</div>
        </div>
      ","0","html-button-response","19","114260","0.0-18.0","5y610ky0xx","MmjD9uQZYa6C","acceptability_rating","38","case_marking_error","filler","Aylin her gün otobüsü bindi.","0"
"3697","
        <div class=""panel"">
          <div class=""sentence-box"">Buzdolabı birayı soğuttu.</div>
          <div class=""scale-note"">Bu cümle size doğal geliyor mu?</div>
        </div>
      ","3","html-button-response","20","117959","0.0-19.0","5y610ky0xx","MmjD9uQZYa6C","acceptability_rating","10","high_energy","critical","Buzdolabı birayı soğuttu.","3"
"3931","
        <div class=""panel"">
          <div class=""sentence-box"">Su gömleği kuruttu.</div>
          <div class=""scale-note"">Bu cümle size doğal geliyor mu?</div>
        </div>
      ","0","html-button-response","21","121892","0.0-20.0","5y610ky0xx","MmjD9uQZYa6C","acceptability_rating","35","semantic_violation","filler","Su gömleği kuruttu.","0"
"3580","
        <div class=""panel"">
          <div class=""sentence-box"">İnsanlar yüksek sesten rahatsız oldu.</div>
          <div class=""scale-note"">Bu cümle size doğal geliyor mu?</div>
        </div>
      ","4","html-button-response","22","125474","0.0-21.0","5y610ky0xx","MmjD9uQZYa6C","acceptability_rating","49","grammatical","filler","İnsanlar yüksek sesten rahatsız oldu.","4"
"2631","
        <div class=""panel"">
          <div class=""sentence-box"">Deniz dalgalanmaya başladı.</div>
          <div class=""scale-note"">Bu cümle size doğal geliyor mu?</div>
        </div>
      ","4","html-button-response","23","128106","0.0-22.0","5y610ky0xx","MmjD9uQZYa6C","acceptability_rating","50","grammatical","filler","Deniz dalgalanmaya başladı.","4"
"4080","
        <div class=""panel"">
          <div class=""sentence-box"">Isıtıcı kahveyi ısıttı.</div>
          <div class=""scale-note"">Bu cümle size doğal geliyor mu?</div>
        </div>
      ","3","html-button-response","24","132188","0.0-23.0","5y610ky0xx","MmjD9uQZYa6C","acceptability_rating","3","high_energy","critical","Isıtıcı kahveyi ısıttı.","3"
"2400","
        <div class=""panel"">
          <div class=""sentence-box"">Güneş kıyafetleri kuruttu.</div>
          <div class=""scale-note"">Bu cümle size doğal geliyor mu?</div>
        </div>
      ","4","html-button-response","25","134589","0.0-24.0","5y610ky0xx","MmjD9uQZYa6C","acceptability_rating","13","high_energy","critical","Güneş kıyafetleri kuruttu.","4"
"3236","
        <div class=""panel"">
          <div class=""sentence-box"">Annem bana yemeği dün yaptıracak.</div>
          <div class=""scale-note"">Bu cümle size doğal geliyor mu?</div>
        </div>
      ","0","html-button-response","26","137828","0.0-25.0","5y610ky0xx","MmjD9uQZYa6C","acceptability_rating","42","tense_mismatch","filler","Annem bana yemeği dün yaptıracak.","0"
"4405","
        <div class=""panel"">
          <div class=""sentence-box"">Kalem notu yazdı.</div>
          <div class=""scale-note"">Bu cümle size doğal geliyor mu?</div>
        </div>
      ","1","html-button-response","27","142234","0.0-26.0","5y610ky0xx","MmjD9uQZYa6C","acceptability_rating","26","low_energy","critical","Kalem notu yazdı.","1"
"6072","
        <div class=""panel"">
          <div class=""sentence-box"">Okul geçtiğimiz yıl 22 mezun verecek.</div>
          <div class=""scale-note"">Bu cümle size doğal geliyor mu?</div>
        </div>
      ","0","html-button-response","28","148308","0.0-27.0","5y610ky0xx","MmjD9uQZYa6C","acceptability_rating","43","tense_mismatch","filler","Okul geçtiğimiz yıl 22 mezun verecek.","0"
"5620","
        <div class=""panel"">
          <div class=""sentence-box"">Çekiç vazoyu kırdı.</div>
          <div class=""scale-note"">Bu cümle size doğal geliyor mu?</div>
        </div>
      ","1","html-button-response","29","153929","0.0-28.0","5y610ky0xx","MmjD9uQZYa6C","acceptability_rating","19","low_energy","critical","Çekiç vazoyu kırdı.","1"
"3785","
        <div class=""panel"">
          <div class=""sentence-box"">Ayakkabı düşünceyi çatlattı.</div>
          <div class=""scale-note"">Bu cümle size doğal geliyor mu?</div>
        </div>
      ","0","html-button-response","30","157717","0.0-29.0","5y610ky0xx","MmjD9uQZYa6C","acceptability_rating","33","semantic_violation","filler","Ayakkabı düşünceyi çatlattı.","0"
"2799","
        <div class=""panel"">
          <div class=""sentence-box"">Yarın Nilüfer bu parçayı söyledi.</div>
          <div class=""scale-note"">Bu cümle size doğal geliyor mu?</div>
        </div>
      ","0","html-button-response","31","160518","0.0-30.0","5y610ky0xx","MmjD9uQZYa6C","acceptability_rating","46","tense_mismatch","filler","Yarın Nilüfer bu parçayı söyledi.","0"
"3006","
        <div class=""panel"">
          <div class=""sentence-box"">Aşçı yemeği dün pişirecek.</div>
          <div class=""scale-note"">Bu cümle size doğal geliyor mu?</div>
        </div>
      ","0","html-button-response","32","163526","0.0-31.0","5y610ky0xx","MmjD9uQZYa6C","acceptability_rating","45","tense_mismatch","filler","Aşçı yemeği dün pişirecek.","0"
"4346","
        <div class=""panel"">
          <div class=""sentence-box"">Soba kabini ısıttı.</div>
          <div class=""scale-note"">Bu cümle size doğal geliyor mu?</div>
        </div>
      ","3","html-button-response","33","167874","0.0-32.0","5y610ky0xx","MmjD9uQZYa6C","acceptability_rating","11","high_energy","critical","Soba kabini ısıttı.","3"
"5333","
        <div class=""panel"">
          <div class=""sentence-box"">Renkler buzu soğuttu.</div>
          <div class=""scale-note"">Bu cümle size doğal geliyor mu?</div>
        </div>
      ","1","html-button-response","34","173209","0.0-33.0","5y610ky0xx","MmjD9uQZYa6C","acceptability_rating","36","semantic_violation","filler","Renkler buzu soğuttu.","1"
"2813","
        <div class=""panel"">
          <div class=""sentence-box"">Bebek annesine özledi.</div>
          <div class=""scale-note"">Bu cümle size doğal geliyor mu?</div>
        </div>
      ","0","html-button-response","35","176024","0.0-34.0","5y610ky0xx","MmjD9uQZYa6C","acceptability_rating","40","case_marking_error","filler","Bebek annesine özledi.","0"
"4359","
        <div class=""panel"">
          <div class=""sentence-box"">Ceket çocuğu ısıttı.</div>
          <div class=""scale-note"">Bu cümle size doğal geliyor mu?</div>
        </div>
      ","4","html-button-response","36","180384","0.0-35.0","5y610ky0xx","MmjD9uQZYa6C","acceptability_rating","22","low_energy","critical","Ceket çocuğu ısıttı.","4"
"3679","
        <div class=""panel"">
          <div class=""sentence-box"">Çatal erişteyi ezdi.</div>
          <div class=""scale-note"">Bu cümle size doğal geliyor mu?</div>
        </div>
      ","4","html-button-response","37","184065","0.0-36.0","5y610ky0xx","MmjD9uQZYa6C","acceptability_rating","16","low_energy","critical","Çatal erişteyi ezdi.","4"
"3707","
        <div class=""panel"">
          <div class=""sentence-box"">Bıçak ekmeği kesti.</div>
          <div class=""scale-note"">Bu cümle size doğal geliyor mu?</div>
        </div>
      ","3","html-button-response","38","187775","0.0-37.0","5y610ky0xx","MmjD9uQZYa6C","acceptability_rating","25","low_energy","critical","Bıçak ekmeği kesti.","3"
"2314","
        <div class=""panel"">
          <div class=""sentence-box"">Rüzgar kapıyı açtı.</div>
          <div class=""scale-note"">Bu cümle size doğal geliyor mu?</div>
        </div>
      ","4","html-button-response","39","190090","0.0-38.0","5y610ky0xx","MmjD9uQZYa6C","acceptability_rating","15","high_energy","critical","Rüzgar kapıyı açtı.","4"
"4157","
        <div class=""panel"">
          <div class=""sentence-box"">Öğrenciler sessizliği ısıttı.</div>
          <div class=""scale-note"">Bu cümle size doğal geliyor mu?</div>
        </div>
      ","0","html-button-response","40","194248","0.0-39.0","5y610ky0xx","MmjD9uQZYa6C","acceptability_rating","31","semantic_violation","filler","Öğrenciler sessizliği ısıttı.","0"
"3991","
        <div class=""panel"">
          <div class=""sentence-box"">Otobüs biraz önce kalkacak.</div>
          <div class=""scale-note"">Bu cümle size doğal geliyor mu?</div>
        </div>
      ","0","html-button-response","41","198241","0.0-40.0","5y610ky0xx","MmjD9uQZYa6C","acceptability_rating","44","tense_mismatch","filler","Otobüs biraz önce kalkacak.","0"
"6581","
        <div class=""panel"">
          <div class=""sentence-box"">Klima tahtayı dondurdu.</div>
          <div class=""scale-note"">Bu cümle size doğal geliyor mu?</div>
        </div>
      ","0","html-button-response","42","204823","0.0-41.0","5y610ky0xx","MmjD9uQZYa6C","acceptability_rating","34","semantic_violation","filler","Klima tahtayı dondurdu.","0"
"3638","
        <div class=""panel"">
          <div class=""sentence-box"">Elektrikli su ısıtıcısı suyu kaynattı.</div>
          <div class=""scale-note"">Bu cümle size doğal geliyor mu?</div>
        </div>
      ","4","html-button-response","43","208463","0.0-42.0","5y610ky0xx","MmjD9uQZYa6C","acceptability_rating","6","high_energy","critical","Elektrikli su ısıtıcısı suyu kaynattı.","4"
"6305","
        <div class=""panel"">
          <div class=""sentence-box"">Gözlük camı kelimeleri büyüttü.</div>
          <div class=""scale-note"">Bu cümle size doğal geliyor mu?</div>
        </div>
      ","4","html-button-response","44","214771","0.0-43.0","5y610ky0xx","MmjD9uQZYa6C","acceptability_rating","7","high_energy","critical","Gözlük camı kelimeleri büyüttü.","4"
"3206","
        <div class=""panel"">
          <div class=""sentence-box"">Klima odayı soğuttu.</div>
          <div class=""scale-note"">Bu cümle size doğal geliyor mu?</div>
        </div>
      ","4","html-button-response","45","217978","0.0-44.0","5y610ky0xx","MmjD9uQZYa6C","acceptability_rating","1","high_energy","critical","Klima odayı soğuttu.","4"
"14289","
        <div class=""panel"">
          <div class=""sentence-box"">Ekmek kızartma makinesi ekmeği kızarttı.</div>
          <div class=""scale-note"">Bu cümle size doğal geliyor mu?</div>
        </div>
      ","4","html-button-response","46","232268","0.0-45.0","5y610ky0xx","MmjD9uQZYa6C","acceptability_rating","14","high_energy","critical","Ekmek kızartma makinesi ekmeği kızarttı.","4"
"2067","
        <div class=""panel"">
          <div class=""sentence-box"">Makas kağıdı kesti.</div>
          <div class=""scale-note"">Bu cümle size doğal geliyor mu?</div>
        </div>
      ","4","html-button-response","47","234337","0.0-46.0","5y610ky0xx","MmjD9uQZYa6C","acceptability_rating","27","low_energy","critical","Makas kağıdı kesti.","4"
"5014","
        <div class=""panel"">
          <div class=""sentence-box"">Dünkü sert güneş şarkıyı eritti.</div>
          <div class=""scale-note"">Bu cümle size doğal geliyor mu?</div>
        </div>
      ","2","html-button-response","48","239352","0.0-47.0","5y610ky0xx","MmjD9uQZYa6C","acceptability_rating","32","semantic_violation","filler","Dünkü sert güneş şarkıyı eritti.","2"
"2491","
        <div class=""panel"">
          <div class=""sentence-box"">Klima duvara takılacak.</div>
          <div class=""scale-note"">Bu cümle size doğal geliyor mu?</div>
        </div>
      ","4","html-button-response","49","241845","0.0-48.0","5y610ky0xx","MmjD9uQZYa6C","acceptability_rating","48","grammatical","filler","Klima duvara takılacak.","4"
"3080","
        <div class=""panel"">
          <div class=""sentence-box"">Ocak eti pişirdi.</div>
          <div class=""scale-note"">Bu cümle size doğal geliyor mu?</div>
        </div>
      ","3","html-button-response","50","244928","0.0-49.0","5y610ky0xx","MmjD9uQZYa6C","acceptability_rating","12","high_energy","critical","Ocak eti pişirdi.","3"
"10010","
        <div class=""panel"">
          <div class=""sentence-box"">Mikrodalga çorbayı ısıttı.</div>
          <div class=""scale-note"">Bu cümle size doğal geliyor mu?</div>
        </div>
      ","3","html-button-response","51","254939","0.0-50.0","5y610ky0xx","MmjD9uQZYa6C","acceptability_rating","9","high_energy","critical","Mikrodalga çorbayı ısıttı.","3"
"null","
      <div class=""panel"">
        <p class=""lede"" id=""save-status"">Veriler işleniyor ve kaydediliyor...</p>
      </div>
    ","null","html-button-response","52","256942","0.0-51.0","5y610ky0xx","MmjD9uQZYa6C","","","","","",""
