"rt","stimulus","response","trial_type","trial_index","time_elapsed","internal_node_id","participant_id","experiment_id","task","item_id","condition","item_type","sentence","rating"
"5271","
      <div class=""panel"">
        <h1>Hoşgeldiniz!</h1>
        <p class=""lede"">Ortalama 5-6 dakika süren bu çalışmada Türkçe cümlelerin kulağa doğal gelip gelmediğine karar vermeniz istenecek.</p>
        <p class=""lede"">Bu çalışmada doğru veya yanlış bir cevap bulunmuyor, karar verirken kendi içgüdülerinize göre davranmalısınız.</p>
        <p class=""lede"">Lütfen cümleleri gördüğünüzde dürüstçe ve dikkatlice karar veriniz.</p>
        <p class=""lede"">Devam butonuna basarak anadilinizin Türkçe olduğunu ve 18 yaşından büyük olduğunuzu onaylamış olacaksınız.</p>
        <p class=""lede"">Katılımınız için teşekkür ederim!</p>

        </div>
    ","0","html-button-response","0","5289","0.0-0.0-0.0","xdgrolj2w8","MmjD9uQZYa6C","","","","","",""
"4256","
      <div class=""panel"">
        <h2>Yönerge</h2>
        <ul class=""intro-list"">
          <li>Cümleleri ardışık olarak birer kez göreceksiniz.</li>
          <li>Değerlendirmenizi belirtmek için 0'dan 4'e kadar sıralanmış butonları kullanınız.</li>
          <li>0 puan, cümleyi çok tuhaf bulduğunuz ve sizin bu cümleyi günlük hayatınızda kullanmayacağınız anlamına gelmektedir.</li>
          <li>4 puan cümlede hiçbir sorun yok anlamına gelmektedir.</li>
          <li>Derecelendirmeyi cümlenin rahatsız edicilik seviyesine göre belirleyiniz.</li>
          <li>Lütfen içgüdünüze güvenin!</li>
        </ul>
      </div>
    ","0","html-button-response","1","9552","0.0-0.0-1.0","xdgrolj2w8","MmjD9uQZYa6C","","","","","",""
"9224","
        <div class=""panel"">
          <div class=""sentence-box"">Kaşık dondurmayı taşıdı.</div>
          <div class=""scale-note"">Bu cümle size doğal geliyor mu?</div>
        </div>
      ","0","html-button-response","2","18785","0.0-1.0","xdgrolj2w8","MmjD9uQZYa6C","acceptability_rating","28","low_energy","critical","Kaşık dondurmayı taşıdı.","0"
"4733","
        <div class=""panel"">
          <div class=""sentence-box"">Güneş kıyafetleri kuruttu.</div>
          <div class=""scale-note"">Bu cümle size doğal geliyor mu?</div>
        </div>
      ","3","html-button-response","3","23528","0.0-2.0","xdgrolj2w8","MmjD9uQZYa6C","acceptability_rating","13","high_energy","critical","Güneş kıyafetleri kuruttu.","3"
"5248","
        <div class=""panel"">
          <div class=""sentence-box"">Bıçak ekmeği kesti.</div>
          <div class=""scale-note"">Bu cümle size doğal geliyor mu?</div>
        </div>
      ","2","html-button-response","4","28784","0.0-3.0","xdgrolj2w8","MmjD9uQZYa6C","acceptability_rating","25","low_energy","critical","Bıçak ekmeği kesti.","2"
"5967","
        <div class=""panel"">
          <div class=""sentence-box"">Gözlük camı kelimeleri büyüttü.</div>
          <div class=""scale-note"">Bu cümle size doğal geliyor mu?</div>
        </div>
      ","1","html-button-response","5","34766","0.0-4.0","xdgrolj2w8","MmjD9uQZYa6C","acceptability_rating","7","high_energy","critical","Gözlük camı kelimeleri büyüttü.","1"
"1980","
        <div class=""panel"">
          <div class=""sentence-box"">Silgi lekeyi sildi.</div>
          <div class=""scale-note"">Bu cümle size doğal geliyor mu?</div>
        </div>
      ","1","html-button-response","6","36754","0.0-5.0","xdgrolj2w8","MmjD9uQZYa6C","acceptability_rating","18","low_energy","critical","Silgi lekeyi sildi.","1"
"2991","
        <div class=""panel"">
          <div class=""sentence-box"">Aylin okula çok sevdi.</div>
          <div class=""scale-note"">Bu cümle size doğal geliyor mu?</div>
        </div>
      ","2","html-button-response","7","39753","0.0-6.0","xdgrolj2w8","MmjD9uQZYa6C","acceptability_rating","37","case_marking_error","filler","Aylin okula çok sevdi.","2"
"4268","
        <div class=""panel"">
          <div class=""sentence-box"">Bebek annesine özledi.</div>
          <div class=""scale-note"">Bu cümle size doğal geliyor mu?</div>
        </div>
      ","4","html-button-response","8","44031","0.0-7.0","xdgrolj2w8","MmjD9uQZYa6C","acceptability_rating","40","case_marking_error","filler","Bebek annesine özledi.","4"
"9730","
        <div class=""panel"">
          <div class=""sentence-box"">Bulaşık makinesi bulaşıkları çalkaladı.</div>
          <div class=""scale-note"">Bu cümle size doğal geliyor mu?</div>
        </div>
      ","1","html-button-response","9","53771","0.0-8.0","xdgrolj2w8","MmjD9uQZYa6C","acceptability_rating","5","high_energy","critical","Bulaşık makinesi bulaşıkları çalkaladı.","1"
"5230","
        <div class=""panel"">
          <div class=""sentence-box"">Soba kabini ısıttı.</div>
          <div class=""scale-note"">Bu cümle size doğal geliyor mu?</div>
        </div>
      ","1","html-button-response","10","59008","0.0-9.0","xdgrolj2w8","MmjD9uQZYa6C","acceptability_rating","11","high_energy","critical","Soba kabini ısıttı.","1"
"6434","
        <div class=""panel"">
          <div class=""sentence-box"">Ekmek kızartma makinesi ekmeği kızarttı.</div>
          <div class=""scale-note"">Bu cümle size doğal geliyor mu?</div>
        </div>
      ","2","html-button-response","11","65449","0.0-10.0","xdgrolj2w8","MmjD9uQZYa6C","acceptability_rating","14","high_energy","critical","Ekmek kızartma makinesi ekmeği kızarttı.","2"
"1990","
        <div class=""panel"">
          <div class=""sentence-box"">Ceket çocuğu ısıttı.</div>
          <div class=""scale-note"">Bu cümle size doğal geliyor mu?</div>
        </div>
      ","2","html-button-response","12","67447","0.0-11.0","xdgrolj2w8","MmjD9uQZYa6C","acceptability_rating","22","low_energy","critical","Ceket çocuğu ısıttı.","2"
"2515","
        <div class=""panel"">
          <div class=""sentence-box"">Deniz dalgalanmaya başladı.</div>
          <div class=""scale-note"">Bu cümle size doğal geliyor mu?</div>
        </div>
      ","4","html-button-response","13","69969","0.0-12.0","xdgrolj2w8","MmjD9uQZYa6C","acceptability_rating","50","grammatical","filler","Deniz dalgalanmaya başladı.","4"
"3185","
        <div class=""panel"">
          <div class=""sentence-box"">Çatal erişteyi ezdi.</div>
          <div class=""scale-note"">Bu cümle size doğal geliyor mu?</div>
        </div>
      ","2","html-button-response","14","73160","0.0-13.0","xdgrolj2w8","MmjD9uQZYa6C","acceptability_rating","16","low_energy","critical","Çatal erişteyi ezdi.","2"
"1538","
        <div class=""panel"">
          <div class=""sentence-box"">Renkler buzu soğuttu.</div>
          <div class=""scale-note"">Bu cümle size doğal geliyor mu?</div>
        </div>
      ","2","html-button-response","15","74705","0.0-14.0","xdgrolj2w8","MmjD9uQZYa6C","acceptability_rating","36","semantic_violation","filler","Renkler buzu soğuttu.","2"
"10203","
        <div class=""panel"">
          <div class=""sentence-box"">Dünkü sert güneş şarkıyı eritti.</div>
          <div class=""scale-note"">Bu cümle size doğal geliyor mu?</div>
        </div>
      ","2","html-button-response","16","84914","0.0-15.0","xdgrolj2w8","MmjD9uQZYa6C","acceptability_rating","32","semantic_violation","filler","Dünkü sert güneş şarkıyı eritti.","2"
"4949","
        <div class=""panel"">
          <div class=""sentence-box"">Klima odayı soğuttu.</div>
          <div class=""scale-note"">Bu cümle size doğal geliyor mu?</div>
        </div>
      ","2","html-button-response","17","89869","0.0-16.0","xdgrolj2w8","MmjD9uQZYa6C","acceptability_rating","1","high_energy","critical","Klima odayı soğuttu.","2"
"3141","
        <div class=""panel"">
          <div class=""sentence-box"">Makas kağıdı kesti.</div>
          <div class=""scale-note"">Bu cümle size doğal geliyor mu?</div>
        </div>
      ","2","html-button-response","18","93017","0.0-17.0","xdgrolj2w8","MmjD9uQZYa6C","acceptability_rating","27","low_energy","critical","Makas kağıdı kesti.","2"
"4820","
        <div class=""panel"">
          <div class=""sentence-box"">Elektrikli su ısıtıcısı suyu kaynattı.</div>
          <div class=""scale-note"">Bu cümle size doğal geliyor mu?</div>
        </div>
      ","1","html-button-response","19","97842","0.0-18.0","xdgrolj2w8","MmjD9uQZYa6C","acceptability_rating","6","high_energy","critical","Elektrikli su ısıtıcısı suyu kaynattı.","1"
"1780","
        <div class=""panel"">
          <div class=""sentence-box"">Mikrodalga çorbayı ısıttı.</div>
          <div class=""scale-note"">Bu cümle size doğal geliyor mu?</div>
        </div>
      ","2","html-button-response","20","99627","0.0-19.0","xdgrolj2w8","MmjD9uQZYa6C","acceptability_rating","9","high_energy","critical","Mikrodalga çorbayı ısıttı.","2"
"2849","
        <div class=""panel"">
          <div class=""sentence-box"">Askı gömleği düşürdü.</div>
          <div class=""scale-note"">Bu cümle size doğal geliyor mu?</div>
        </div>
      ","1","html-button-response","21","102483","0.0-20.0","xdgrolj2w8","MmjD9uQZYa6C","acceptability_rating","20","low_energy","critical","Askı gömleği düşürdü.","1"
"2139","
        <div class=""panel"">
          <div class=""sentence-box"">Diş fırçası dişleri temizledi.</div>
          <div class=""scale-note"">Bu cümle size doğal geliyor mu?</div>
        </div>
      ","1","html-button-response","22","104630","0.0-21.0","xdgrolj2w8","MmjD9uQZYa6C","acceptability_rating","30","low_energy","critical","Diş fırçası dişleri temizledi.","1"
"1522","
        <div class=""panel"">
          <div class=""sentence-box"">Buzdolabı birayı soğuttu.</div>
          <div class=""scale-note"">Bu cümle size doğal geliyor mu?</div>
        </div>
      ","1","html-button-response","23","106158","0.0-22.0","xdgrolj2w8","MmjD9uQZYa6C","acceptability_rating","10","high_energy","critical","Buzdolabı birayı soğuttu.","1"
"2283","
        <div class=""panel"">
          <div class=""sentence-box"">Isıtıcı kahveyi ısıttı.</div>
          <div class=""scale-note"">Bu cümle size doğal geliyor mu?</div>
        </div>
      ","2","html-button-response","24","108448","0.0-23.0","xdgrolj2w8","MmjD9uQZYa6C","acceptability_rating","3","high_energy","critical","Isıtıcı kahveyi ısıttı.","2"
"3051","
        <div class=""panel"">
          <div class=""sentence-box"">Ayakkabı düşünceyi çatlattı.</div>
          <div class=""scale-note"">Bu cümle size doğal geliyor mu?</div>
        </div>
      ","1","html-button-response","25","111505","0.0-24.0","xdgrolj2w8","MmjD9uQZYa6C","acceptability_rating","33","semantic_violation","filler","Ayakkabı düşünceyi çatlattı.","1"
"7432","
        <div class=""panel"">
          <div class=""sentence-box"">Topuklu ayakkabı zemini çizdi.</div>
          <div class=""scale-note"">Bu cümle size doğal geliyor mu?</div>
        </div>
      ","2","html-button-response","26","118943","0.0-25.0","xdgrolj2w8","MmjD9uQZYa6C","acceptability_rating","21","low_energy","critical","Topuklu ayakkabı zemini çizdi.","2"
"3247","
        <div class=""panel"">
          <div class=""sentence-box"">Rüzgar kapıyı açtı.</div>
          <div class=""scale-note"">Bu cümle size doğal geliyor mu?</div>
        </div>
      ","4","html-button-response","27","122195","0.0-26.0","xdgrolj2w8","MmjD9uQZYa6C","acceptability_rating","15","high_energy","critical","Rüzgar kapıyı açtı.","4"
"3720","
        <div class=""panel"">
          <div class=""sentence-box"">Kalem notu yazdı.</div>
          <div class=""scale-note"">Bu cümle size doğal geliyor mu?</div>
        </div>
      ","0","html-button-response","28","125920","0.0-27.0","xdgrolj2w8","MmjD9uQZYa6C","acceptability_rating","26","low_energy","critical","Kalem notu yazdı.","0"
"3327","
        <div class=""panel"">
          <div class=""sentence-box"">Çocuklar karanlığı çok korktu.</div>
          <div class=""scale-note"">Bu cümle size doğal geliyor mu?</div>
        </div>
      ","0","html-button-response","29","129252","0.0-28.0","xdgrolj2w8","MmjD9uQZYa6C","acceptability_rating","39","case_marking_error","filler","Çocuklar karanlığı çok korktu.","0"
"4048","
        <div class=""panel"">
          <div class=""sentence-box"">Öğrenciler sessizliği ısıttı.</div>
          <div class=""scale-note"">Bu cümle size doğal geliyor mu?</div>
        </div>
      ","0","html-button-response","30","133304","0.0-29.0","xdgrolj2w8","MmjD9uQZYa6C","acceptability_rating","31","semantic_violation","filler","Öğrenciler sessizliği ısıttı.","0"
"2761","
        <div class=""panel"">
          <div class=""sentence-box"">Çalar saat çocukları uyandırdı.</div>
          <div class=""scale-note"">Bu cümle size doğal geliyor mu?</div>
        </div>
      ","4","html-button-response","31","136070","0.0-30.0","xdgrolj2w8","MmjD9uQZYa6C","acceptability_rating","2","high_energy","critical","Çalar saat çocukları uyandırdı.","4"
"3592","
        <div class=""panel"">
          <div class=""sentence-box"">Otobüs biraz önce kalkacak.</div>
          <div class=""scale-note"">Bu cümle size doğal geliyor mu?</div>
        </div>
      ","0","html-button-response","32","139666","0.0-31.0","xdgrolj2w8","MmjD9uQZYa6C","acceptability_rating","44","tense_mismatch","filler","Otobüs biraz önce kalkacak.","0"
"8410","
        <div class=""panel"">
          <div class=""sentence-box"">Okul geçtiğimiz yıl 22 mezun verecek.</div>
          <div class=""scale-note"">Bu cümle size doğal geliyor mu?</div>
        </div>
      ","0","html-button-response","33","148081","0.0-32.0","xdgrolj2w8","MmjD9uQZYa6C","acceptability_rating","43","tense_mismatch","filler","Okul geçtiğimiz yıl 22 mezun verecek.","0"
"2253","
        <div class=""panel"">
          <div class=""sentence-box"">Aylin camı çatlattı.</div>
          <div class=""scale-note"">Bu cümle size doğal geliyor mu?</div>
        </div>
      ","1","html-button-response","34","150340","0.0-33.0","xdgrolj2w8","MmjD9uQZYa6C","acceptability_rating","47","grammatical","filler","Aylin camı çatlattı.","1"
"1673","
        <div class=""panel"">
          <div class=""sentence-box"">Aylin arkadaşını saldırdı.</div>
          <div class=""scale-note"">Bu cümle size doğal geliyor mu?</div>
        </div>
      ","1","html-button-response","35","152018","0.0-34.0","xdgrolj2w8","MmjD9uQZYa6C","acceptability_rating","41","case_marking_error","filler","Aylin arkadaşını saldırdı.","1"
"4773","
        <div class=""panel"">
          <div class=""sentence-box"">Anahtar kapıyı kilitledi.</div>
          <div class=""scale-note"">Bu cümle size doğal geliyor mu?</div>
        </div>
      ","1","html-button-response","36","156796","0.0-35.0","xdgrolj2w8","MmjD9uQZYa6C","acceptability_rating","24","low_energy","critical","Anahtar kapıyı kilitledi.","1"
"2039","
        <div class=""panel"">
          <div class=""sentence-box"">Yıldırım bekçiyi öldürdü.</div>
          <div class=""scale-note"">Bu cümle size doğal geliyor mu?</div>
        </div>
      ","1","html-button-response","37","158842","0.0-36.0","xdgrolj2w8","MmjD9uQZYa6C","acceptability_rating","8","high_energy","critical","Yıldırım bekçiyi öldürdü.","1"
"1412","
        <div class=""panel"">
          <div class=""sentence-box"">Taş pencereyi kırdı.</div>
          <div class=""scale-note"">Bu cümle size doğal geliyor mu?</div>
        </div>
      ","1","html-button-response","38","160261","0.0-37.0","xdgrolj2w8","MmjD9uQZYa6C","acceptability_rating","29","low_energy","critical","Taş pencereyi kırdı.","1"
"2174","
        <div class=""panel"">
          <div class=""sentence-box"">Tirbuşon şişeyi açtı.</div>
          <div class=""scale-note"">Bu cümle size doğal geliyor mu?</div>
        </div>
      ","2","html-button-response","39","162441","0.0-38.0","xdgrolj2w8","MmjD9uQZYa6C","acceptability_rating","17","low_energy","critical","Tirbuşon şişeyi açtı.","2"
"2836","
        <div class=""panel"">
          <div class=""sentence-box"">İnsanlar yüksek sesten rahatsız oldu.</div>
          <div class=""scale-note"">Bu cümle size doğal geliyor mu?</div>
        </div>
      ","1","html-button-response","40","165284","0.0-39.0","xdgrolj2w8","MmjD9uQZYa6C","acceptability_rating","49","grammatical","filler","İnsanlar yüksek sesten rahatsız oldu.","1"
"2547","
        <div class=""panel"">
          <div class=""sentence-box"">Aylin her gün otobüsü bindi.</div>
          <div class=""scale-note"">Bu cümle size doğal geliyor mu?</div>
        </div>
      ","1","html-button-response","41","167838","0.0-40.0","xdgrolj2w8","MmjD9uQZYa6C","acceptability_rating","38","case_marking_error","filler","Aylin her gün otobüsü bindi.","1"
"2596","
        <div class=""panel"">
          <div class=""sentence-box"">Mum odayı aydınlattı.</div>
          <div class=""scale-note"">Bu cümle size doğal geliyor mu?</div>
        </div>
      ","1","html-button-response","42","170439","0.0-41.0","xdgrolj2w8","MmjD9uQZYa6C","acceptability_rating","4","high_energy","critical","Mum odayı aydınlattı.","1"
"5501","
        <div class=""panel"">
          <div class=""sentence-box"">Klima tahtayı dondurdu.</div>
          <div class=""scale-note"">Bu cümle size doğal geliyor mu?</div>
        </div>
      ","1","html-button-response","43","175945","0.0-42.0","xdgrolj2w8","MmjD9uQZYa6C","acceptability_rating","34","semantic_violation","filler","Klima tahtayı dondurdu.","1"
"8203","
        <div class=""panel"">
          <div class=""sentence-box"">Aşçı yemeği dün pişirecek.</div>
          <div class=""scale-note"">Bu cümle size doğal geliyor mu?</div>
        </div>
      ","1","html-button-response","44","184155","0.0-43.0","xdgrolj2w8","MmjD9uQZYa6C","acceptability_rating","45","tense_mismatch","filler","Aşçı yemeği dün pişirecek.","1"
"3360","
        <div class=""panel"">
          <div class=""sentence-box"">Yarın Nilüfer bu parçayı söyledi.</div>
          <div class=""scale-note"">Bu cümle size doğal geliyor mu?</div>
        </div>
      ","0","html-button-response","45","187521","0.0-44.0","xdgrolj2w8","MmjD9uQZYa6C","acceptability_rating","46","tense_mismatch","filler","Yarın Nilüfer bu parçayı söyledi.","0"
"1995","
        <div class=""panel"">
          <div class=""sentence-box"">Annem bana yemeği dün yaptıracak.</div>
          <div class=""scale-note"">Bu cümle size doğal geliyor mu?</div>
        </div>
      ","0","html-button-response","46","189523","0.0-45.0","xdgrolj2w8","MmjD9uQZYa6C","acceptability_rating","42","tense_mismatch","filler","Annem bana yemeği dün yaptıracak.","0"
"3297","
        <div class=""panel"">
          <div class=""sentence-box"">Klima duvara takılacak.</div>
          <div class=""scale-note"">Bu cümle size doğal geliyor mu?</div>
        </div>
      ","0","html-button-response","47","192825","0.0-46.0","xdgrolj2w8","MmjD9uQZYa6C","acceptability_rating","48","grammatical","filler","Klima duvara takılacak.","0"
"2211","
        <div class=""panel"">
          <div class=""sentence-box"">Su gömleği kuruttu.</div>
          <div class=""scale-note"">Bu cümle size doğal geliyor mu?</div>
        </div>
      ","0","html-button-response","48","195043","0.0-47.0","xdgrolj2w8","MmjD9uQZYa6C","acceptability_rating","35","semantic_violation","filler","Su gömleği kuruttu.","0"
"2662","
        <div class=""panel"">
          <div class=""sentence-box"">Ocak eti pişirdi.</div>
          <div class=""scale-note"">Bu cümle size doğal geliyor mu?</div>
        </div>
      ","0","html-button-response","49","197711","0.0-48.0","xdgrolj2w8","MmjD9uQZYa6C","acceptability_rating","12","high_energy","critical","Ocak eti pişirdi.","0"
"3253","
        <div class=""panel"">
          <div class=""sentence-box"">Çekiç vazoyu kırdı.</div>
          <div class=""scale-note"">Bu cümle size doğal geliyor mu?</div>
        </div>
      ","0","html-button-response","50","200970","0.0-49.0","xdgrolj2w8","MmjD9uQZYa6C","acceptability_rating","19","low_energy","critical","Çekiç vazoyu kırdı.","0"
"2634","
        <div class=""panel"">
          <div class=""sentence-box"">Çaydanlık çayı demledi.</div>
          <div class=""scale-note"">Bu cümle size doğal geliyor mu?</div>
        </div>
      ","1","html-button-response","51","203610","0.0-50.0","xdgrolj2w8","MmjD9uQZYa6C","acceptability_rating","23","low_energy","critical","Çaydanlık çayı demledi.","1"
"null","
      <div class=""panel"">
        <p class=""lede"" id=""save-status"">Veriler işleniyor ve kaydediliyor...</p>
      </div>
    ","null","html-button-response","52","205618","0.0-51.0","xdgrolj2w8","MmjD9uQZYa6C","","","","","",""
